# Dihedral Angle (Degree),  Occurrence1,  Occurrence2
1.000000000,  72.39992868,  74.70355082
3.000000000,  72.50639724,  74.13484867
5.000000000,  72.74834600,  74.24056900
7.000000000,  73.55598959,  74.43500618
9.000000000,  72.71826041,  74.54762928
11.00000000,  73.39387189,  74.87789415
13.00000000,  74.45626199,  75.65133964
15.00000000,  74.87729607,  75.21937972
17.00000000,  75.10150934,  76.00717332
19.00000000,  76.09199618,  78.01694881
21.00000000,  78.54802228,  79.06818318
23.00000000,  79.38384791,  80.03445923
25.00000000,  81.46870834,  81.50343106
27.00000000,  82.86343130,  82.88296878
29.00000000,  83.85457827,  85.27753589
31.00000000,  85.93510552,  87.30236053
33.00000000,  88.80290297,  89.28081411
35.00000000,  92.19224567,  92.71117932
37.00000000,  94.20599504,  95.69503229
39.00000000,  97.63880487,  99.34786962
41.00000000,  100.8004527,  101.2629739
43.00000000,  104.0963871,  103.8268182
45.00000000,  107.1098556,  107.8585233
47.00000000,  109.4868318,  110.0027617
49.00000000,  112.0490731,  113.1442619
51.00000000,  115.8158107,  115.1296472
53.00000000,  117.5810335,  116.8493810
55.00000000,  119.4528242,  119.6721722
57.00000000,  120.2396673,  119.9072289
59.00000000,  120.8995813,  121.1281863
61.00000000,  121.9223001,  121.1474752
63.00000000,  122.0550040,  119.3640087
65.00000000,  120.5519391,  118.6776045
67.00000000,  117.9384031,  116.1571631
69.00000000,  114.7146593,  113.8039544
71.00000000,  112.2180318,  109.2939527
73.00000000,  107.0942718,  104.6481496
75.00000000,  103.7434882,  101.3101032
77.00000000,  100.3902477,  96.72317541
79.00000000,  94.97050154,  92.02968027
81.00000000,  90.55811697,  88.08266265
83.00000000,  87.40848928,  84.16867890
85.00000000,  85.01376382,  81.81159939
87.00000000,  81.48046137,  79.07366168
89.00000000,  79.19763315,  77.98858009
91.00000000,  78.58053732,  76.49603129
93.00000000,  79.28963159,  76.25223697
95.00000000,  80.11133156,  76.91343543
97.00000000,  82.62798045,  79.37928927
99.00000000,  85.23522343,  82.23706020
101.0000000,  90.10147673,  87.12033378
103.0000000,  94.58408863,  91.60730643
105.0000000,  101.1472590,  95.94519329
107.0000000,  107.4990659,  102.7346975
109.0000000,  114.4088292,  108.7789606
111.0000000,  120.1386802,  114.3736879
113.0000000,  125.8872421,  119.4992423
115.0000000,  130.6454022,  123.4476044
117.0000000,  134.8202599,  126.5281249
119.0000000,  137.2165748,  128.6916310
121.0000000,  137.8231724,  129.2152984
123.0000000,  137.6195178,  128.9783642
125.0000000,  136.2418437,  126.4569115
127.0000000,  133.6508183,  123.8492837
129.0000000,  129.6580686,  121.0855205
131.0000000,  124.0614911,  117.3015414
133.0000000,  118.9280483,  112.2753697
135.0000000,  113.8422591,  105.5907400
137.0000000,  109.6531138,  100.4623771
139.0000000,  104.3797872,  96.27073407
141.0000000,  100.1247730,  92.49393816
143.0000000,  96.65323227,  89.39352692
145.0000000,  92.71712937,  87.16311700
147.0000000,  89.44895938,  84.51209468
149.0000000,  87.87650859,  82.33404999
151.0000000,  87.36003644,  81.98725603
153.0000000,  87.21091350,  82.03238500
155.0000000,  87.70348188,  83.15779555
157.0000000,  88.89811750,  85.27464637
159.0000000,  90.50302519,  86.84535560
161.0000000,  93.34285199,  90.42856753
163.0000000,  95.81298131,  91.99186434
165.0000000,  99.54916748,  94.91504850
167.0000000,  102.6795423,  99.15557046
169.0000000,  105.5838554,  102.9996377
171.0000000,  109.4469235,  106.2733194
173.0000000,  112.4117516,  108.0014756
175.0000000,  112.9096795,  109.3503338
177.0000000,  114.7452540,  111.4248547
179.0000000,  115.7780070,  110.5851934
181.0000000,  114.3540957,  110.7868942
183.0000000,  114.4889576,  111.3874598
185.0000000,  113.5137214,  109.8543620
187.0000000,  111.0790082,  107.6788685
189.0000000,  108.6899855,  105.3230435
191.0000000,  105.9938720,  103.4053401
193.0000000,  103.1527346,  99.63749084
195.0000000,  98.99712811,  96.28594529
197.0000000,  95.98964076,  93.73819509
199.0000000,  93.17886803,  90.91265313
201.0000000,  90.45606895,  88.33395186
203.0000000,  88.50801715,  86.62065879
205.0000000,  87.16303302,  85.32637759
207.0000000,  86.17651872,  85.16960850
209.0000000,  86.34108052,  85.56605100
211.0000000,  86.17607472,  85.56612662
213.0000000,  86.67759979,  87.64227512
215.0000000,  88.62293759,  89.49800322
217.0000000,  91.36098944,  93.41662743
219.0000000,  94.78621028,  97.55564444
221.0000000,  100.6656468,  102.0916693
223.0000000,  103.8613430,  106.9857741
225.0000000,  108.9120675,  111.8350023
227.0000000,  113.0388080,  116.9948009
229.0000000,  117.9258369,  122.7433064
231.0000000,  122.1946771,  127.9332192
233.0000000,  124.7962787,  132.9983078
235.0000000,  128.9566293,  136.1169921
237.0000000,  131.1827223,  138.9273649
239.0000000,  131.8013616,  138.4984331
241.0000000,  130.6429307,  138.2863539
243.0000000,  129.3444674,  135.6186102
245.0000000,  126.2014800,  132.3060372
247.0000000,  121.8663738,  127.7626612
249.0000000,  116.3495431,  123.2910560
251.0000000,  110.7836116,  116.6674716
253.0000000,  104.2825952,  110.3291705
255.0000000,  97.65025487,  104.3908176
257.0000000,  93.51058548,  97.33481353
259.0000000,  87.67345428,  92.37290390
261.0000000,  84.31434929,  88.27494305
263.0000000,  81.25794380,  85.57389944
265.0000000,  79.49439130,  83.01011223
267.0000000,  77.80266663,  81.49049790
269.0000000,  78.34108090,  80.98375229
271.0000000,  79.91301576,  82.38421042
273.0000000,  81.31992418,  84.85562099
275.0000000,  83.02853136,  87.81241070
277.0000000,  86.50267442,  90.59937357
279.0000000,  90.79292693,  94.90570074
281.0000000,  95.41998377,  98.97515623
283.0000000,  99.75776926,  104.7495768
285.0000000,  104.4291224,  109.4728148
287.0000000,  107.7979696,  113.9278514
289.0000000,  112.7834703,  116.7690013
291.0000000,  116.2963992,  122.2267699
293.0000000,  119.7600726,  124.6078857
295.0000000,  120.2248279,  127.5007177
297.0000000,  122.4671874,  128.7875814
299.0000000,  123.8938227,  129.0086626
301.0000000,  122.8141666,  127.9723955
303.0000000,  122.1041073,  128.3932854
305.0000000,  120.4164134,  127.2980409
307.0000000,  118.9228456,  124.1138035
309.0000000,  117.6675856,  121.6387485
311.0000000,  114.3412808,  119.2720870
313.0000000,  110.9791371,  116.0315702
315.0000000,  107.5730001,  112.1609983
317.0000000,  105.0678234,  109.3657143
319.0000000,  101.2289696,  106.2339197
321.0000000,  98.76222597,  102.6050442
323.0000000,  95.48135158,  99.16301877
325.0000000,  92.77378815,  96.19515378
327.0000000,  90.02300637,  93.73342999
329.0000000,  88.11151720,  91.19225416
331.0000000,  84.70896996,  88.05477090
333.0000000,  82.79394265,  85.56776046
335.0000000,  81.10654032,  83.10668135
337.0000000,  79.81559695,  81.05280178
339.0000000,  79.03100697,  80.44634647
341.0000000,  77.14701305,  78.85642187
343.0000000,  76.30622619,  77.72263442
345.0000000,  75.51499025,  75.86135687
347.0000000,  75.36565007,  75.47156881
349.0000000,  73.78307215,  74.12795653
351.0000000,  72.82772310,  74.61390244
353.0000000,  73.75819279,  74.86703808
355.0000000,  73.13360906,  74.73981095
357.0000000,  73.49030310,  73.70614893
359.0000000,  73.56438266,  73.51686950
