# Dihedral Angle (Degree),  Occurrence1,  Occurrence2
1.000000000,  74.81693313,  72.83579994
3.000000000,  74.97026356,  74.15487750
5.000000000,  76.01311191,  73.55064639
7.000000000,  75.58758349,  74.37927526
9.000000000,  75.73593197,  73.74627088
11.00000000,  76.38233535,  74.54008791
13.00000000,  76.01375673,  74.85292106
15.00000000,  77.23449423,  75.90734534
17.00000000,  77.60221362,  75.63689336
19.00000000,  78.32501430,  76.28934686
21.00000000,  79.14097561,  76.98093688
23.00000000,  80.37892379,  78.39322675
25.00000000,  83.81017999,  80.63021465
27.00000000,  85.03919958,  81.77336177
29.00000000,  85.86070643,  82.38001807
31.00000000,  87.94475573,  84.41678984
33.00000000,  90.70094041,  88.08871497
35.00000000,  94.33140934,  90.65226431
37.00000000,  96.06874107,  92.55839602
39.00000000,  99.01868985,  95.58691533
41.00000000,  102.2096729,  99.31628461
43.00000000,  104.7767678,  100.8166302
45.00000000,  107.7057404,  103.8342214
47.00000000,  110.9099436,  106.9433428
49.00000000,  115.1517998,  109.0232140
51.00000000,  117.0063131,  111.9276008
53.00000000,  118.2904422,  113.8943014
55.00000000,  119.3449448,  115.7938616
57.00000000,  121.3034907,  117.3540723
59.00000000,  121.7854507,  117.3079232
61.00000000,  121.7492226,  118.2333016
63.00000000,  119.8814278,  117.8487650
65.00000000,  119.3188798,  116.8247149
67.00000000,  116.9273715,  113.8803735
69.00000000,  114.2735371,  110.1702207
71.00000000,  110.6733699,  106.8760303
73.00000000,  106.5309724,  103.0915521
75.00000000,  102.1039369,  99.74595702
77.00000000,  98.14198502,  95.56230702
79.00000000,  94.63850984,  91.99216121
81.00000000,  89.57677237,  88.06838641
83.00000000,  86.17052871,  84.72724003
85.00000000,  83.53369653,  81.78273234
87.00000000,  80.25411061,  78.95047822
89.00000000,  77.35682087,  77.98871380
91.00000000,  76.87117653,  77.73175953
93.00000000,  77.86745202,  78.55532385
95.00000000,  78.37302576,  79.47929281
97.00000000,  80.79460485,  82.22263159
99.00000000,  85.12014163,  86.17896538
101.0000000,  88.67553685,  90.21179291
103.0000000,  92.64527608,  95.21175617
105.0000000,  99.69595719,  102.7814903
107.0000000,  106.5154492,  108.7142334
109.0000000,  111.8232227,  115.1562799
111.0000000,  117.9048491,  121.4575498
113.0000000,  123.9917467,  128.1264138
115.0000000,  128.3728114,  132.9756364
117.0000000,  132.1474587,  136.9209829
119.0000000,  133.8066831,  138.1614242
121.0000000,  134.4747975,  140.0856501
123.0000000,  134.3232311,  138.9688558
125.0000000,  133.4475704,  136.7799763
127.0000000,  129.1961457,  133.8085261
129.0000000,  125.7095106,  129.3441649
131.0000000,  120.9001370,  124.5819466
133.0000000,  117.1069008,  120.2078850
135.0000000,  110.4600515,  114.4588577
137.0000000,  105.9041349,  107.9415027
139.0000000,  101.4218106,  101.7078408
141.0000000,  97.10891137,  97.65049447
143.0000000,  93.32232012,  93.71082903
145.0000000,  89.88675310,  91.16053480
147.0000000,  87.63587458,  87.38944621
149.0000000,  84.75166277,  85.53478263
151.0000000,  84.09333247,  85.21692390
153.0000000,  85.03390951,  84.73346950
155.0000000,  85.53025912,  84.69750388
157.0000000,  86.01809236,  86.27128970
159.0000000,  87.97747420,  87.27019013
161.0000000,  90.69442287,  90.80952151
163.0000000,  93.66243955,  93.81188243
165.0000000,  96.27083891,  96.50824799
167.0000000,  99.38755347,  99.24741347
169.0000000,  103.0365211,  101.5643877
171.0000000,  104.6197338,  104.0292359
173.0000000,  108.0533510,  106.9303771
175.0000000,  109.6156495,  108.6036556
177.0000000,  111.8864676,  110.4474474
179.0000000,  111.1528400,  112.7315541
181.0000000,  111.8407658,  111.1813824
183.0000000,  111.0944125,  110.9893761
185.0000000,  110.7474572,  108.8459822
187.0000000,  108.0825337,  107.8224972
189.0000000,  106.5713164,  106.2573223
191.0000000,  103.8114782,  103.1631120
193.0000000,  100.5233203,  99.89991632
195.0000000,  98.12051547,  97.27843595
197.0000000,  94.96267534,  93.59164264
199.0000000,  91.70951555,  91.98217494
201.0000000,  90.07899334,  89.38138259
203.0000000,  88.02296018,  87.68977398
205.0000000,  86.08757331,  86.17375805
207.0000000,  85.75974434,  85.57069188
209.0000000,  86.89369228,  84.95886375
211.0000000,  87.44989657,  85.14964422
213.0000000,  90.15505068,  87.98587818
215.0000000,  92.87052011,  89.76459804
217.0000000,  95.23956321,  93.12530368
219.0000000,  99.43027328,  95.67984919
221.0000000,  102.4854906,  102.0444043
223.0000000,  108.6295602,  106.1221094
225.0000000,  113.5670868,  111.8408186
227.0000000,  118.8571932,  116.2984697
229.0000000,  124.4362938,  121.1814397
231.0000000,  127.5091398,  125.7214746
233.0000000,  131.4639439,  130.5340022
235.0000000,  133.5356116,  133.6757132
237.0000000,  135.1715093,  134.7471234
239.0000000,  135.1050212,  135.6100243
241.0000000,  134.0807028,  135.5947708
243.0000000,  132.5362382,  132.9123729
245.0000000,  128.9224403,  129.1019177
247.0000000,  124.6736024,  125.5092625
249.0000000,  119.2759745,  118.8436904
251.0000000,  113.3072224,  113.1737658
253.0000000,  106.8338585,  107.2905206
255.0000000,  100.3634841,  101.6050408
257.0000000,  94.56335453,  96.44420256
259.0000000,  90.16880609,  90.50631259
261.0000000,  85.90229687,  86.31404197
263.0000000,  82.03709724,  83.26871970
265.0000000,  80.88632104,  81.77895515
267.0000000,  79.43095608,  80.94805467
269.0000000,  78.95133451,  81.12717546
271.0000000,  79.72934987,  81.45033653
273.0000000,  82.50749985,  83.13729387
275.0000000,  83.88622726,  84.68304559
277.0000000,  86.89654573,  89.89800771
279.0000000,  91.72251917,  93.87409750
281.0000000,  95.93878442,  98.63505209
283.0000000,  99.48994164,  102.8805687
285.0000000,  103.3524358,  107.6164809
287.0000000,  108.6315814,  111.5046086
289.0000000,  112.2978524,  116.2618059
291.0000000,  115.0399585,  119.8207425
293.0000000,  118.7523378,  122.2763591
295.0000000,  120.5486024,  124.6131460
297.0000000,  122.6816369,  126.6099732
299.0000000,  122.2235922,  126.0631087
301.0000000,  121.6173613,  125.7049669
303.0000000,  121.5698016,  125.2298943
305.0000000,  120.6645810,  124.8760547
307.0000000,  117.8461082,  122.1537980
309.0000000,  116.5680563,  120.1274973
311.0000000,  113.1196852,  117.3847033
313.0000000,  110.0627049,  113.7742890
315.0000000,  107.9070736,  109.7665635
317.0000000,  103.9616721,  107.8045706
319.0000000,  100.5917442,  103.0288042
321.0000000,  97.46385967,  100.2421801
323.0000000,  95.72551593,  96.69799934
325.0000000,  92.05296347,  94.30734410
327.0000000,  90.35999434,  91.56886872
329.0000000,  88.65213225,  89.20743344
331.0000000,  85.96340041,  85.55070813
333.0000000,  83.56293496,  84.60904984
335.0000000,  82.56133645,  82.14026838
337.0000000,  80.09382693,  80.00650392
339.0000000,  78.81433639,  78.28836512
341.0000000,  78.12869599,  77.12619516
343.0000000,  76.99416364,  75.96616691
345.0000000,  77.69888108,  75.41703308
347.0000000,  76.80898333,  75.60146555
349.0000000,  76.13642641,  74.53247508
351.0000000,  75.76999672,  74.02162927
353.0000000,  75.52092998,  74.55553517
355.0000000,  75.36473979,  74.39694136
357.0000000,  75.43911071,  74.60823207
359.0000000,  75.25336307,  73.89525215
